MORPHOLOGY AT STRAIN =    0.0010  FOR PHASE  1
   1.000   1.001   0.999  <-- AXES OF PHASE ELLIPSOID
   45.05   90.00   90.00  <-- EULER ANGLES OF PHASE ELLIPSOID (deg)
B       500
 -144.85  110.78   73.96     0.002000       1.0003    1.0007    0.9991
 -136.66  125.19   91.79     0.002000       0.9999    1.0015    0.9985
   50.36   76.44   64.60     0.002000       1.0000    1.0018    0.9982
 -135.26   87.83   95.13     0.002000       1.0001    1.0010    0.9988
 -135.23   86.91   99.92     0.002000       1.0003    1.0008    0.9989
   45.77   97.50   92.44     0.002000       1.0000    1.0021    0.9979
 -153.69   88.66   89.18     0.002000       1.0000    1.0005    0.9995
   47.82  112.42   95.69     0.002000       1.0000    1.0019    0.9981
 -135.23   89.74   62.34     0.002000       1.0004    1.0009    0.9987
   40.80  109.28   57.67     0.002000       1.0002    1.0012    0.9987
   47.15   85.08   68.72     0.002000       1.0000    1.0019    0.9981
 -135.74   97.96   87.57     0.002000       1.0000    1.0021    0.9979
 -139.13   66.70   92.45     0.002000       0.9997    1.0011    0.9992
 -138.00   91.57   89.08     0.002000       0.9997    1.0013    0.9991
 -135.71  105.16   87.22     0.002000       0.9996    1.0012    0.9993
 -149.41  112.39   80.77     0.002000       1.0000    1.0002    0.9998
   47.02   95.45   76.71     0.002000       1.0000    1.0021    0.9979
   37.27  125.69   51.68     0.002000       1.0000    1.0007    0.9993
   44.24  116.72   63.00     0.002000       0.9998    1.0008    0.9994
 -142.39  110.17   65.50     0.002000       1.0000    1.0017    0.9983
   50.98  123.73   95.87     0.002000       0.9997    1.0012    0.9991
   51.63   58.65   75.50     0.002000       1.0000    1.0016    0.9984
 -136.06   97.87   76.89     0.002000       1.0000    1.0021    0.9979
 -131.00  111.15  111.25     0.002000       1.0000    1.0016    0.9984
   48.25   89.30   86.76     0.002000       1.0003    1.0008    0.9990
 -143.23  103.43   96.46     0.002000       1.0000    1.0008    0.9992
 -137.59   93.56   93.80     0.002000       1.0001    1.0011    0.9989
   55.90  108.75  -43.40     0.002000       1.0001    1.0009    0.9990
 -158.67   75.01   91.18     0.002000       1.0000    1.0002    0.9998
 -135.30   97.57  126.94     0.002000       1.0004    1.0010    0.9986
 -136.31   94.56   95.25     0.002000       1.0001    1.0010    0.9989
   55.18  121.09  117.00     0.002000       0.9999    1.0013    0.9988
   55.86  117.52  132.57     0.002000       1.0001    1.0008    0.9990
 -151.05  117.16   43.57     0.002000       1.0001    1.0002    0.9997
   47.82   87.71   52.02     0.002000       1.0002    1.0013    0.9985
 -137.02   68.14   81.81     0.002000       0.9996    1.0013    0.9991
   51.93   59.78   70.63     0.002000       0.9999    1.0015    0.9986
   40.35   48.13  107.35     0.002000       0.9997    1.0011    0.9992
 -134.77   82.14   87.29     0.002000       0.9998    1.0011    0.9991
 -137.55   89.17   89.63     0.002000       0.9998    1.0012    0.9990
   40.99  121.73   78.80     0.002000       0.9997    1.0014    0.9989
 -138.12   81.46   82.95     0.002000       1.0000    1.0010    0.9989
   50.86   71.18  102.22     0.002000       1.0001    1.0008    0.9991
 -135.89   95.00   54.87     0.002000       1.0003    1.0011    0.9986
   49.57   72.48   75.86     0.002000       1.0004    1.0007    0.9989
 -138.20   82.49   94.23     0.002000       0.9999    1.0011    0.9990
   36.68   60.55  127.52     0.002000       1.0000    1.0011    0.9989
   47.77   88.57   72.85     0.002000       1.0003    1.0008    0.9989
   50.53   94.30  131.26     0.002000       1.0002    1.0012    0.9986
   44.73   82.31  125.34     0.002000       1.0002    1.0014    0.9985
   44.83   78.07  114.36     0.002000       1.0000    1.0018    0.9982
 -135.30   89.81   92.10     0.002000       1.0001    1.0011    0.9988
   45.09   78.70   93.99     0.002000       0.9996    1.0013    0.9991
   48.59  104.59  107.67     0.002000       1.0000    1.0020    0.9980
   47.39  108.59   74.04     0.002000       0.9997    1.0011    0.9992
   36.81  125.60   51.45     0.002000       0.9999    1.0006    0.9995
   51.77   92.60  113.04     0.002000       0.9997    1.0009    0.9994
   54.46  116.47  123.99     0.002000       1.0000    1.0013    0.9987
   47.39   87.94   95.67     0.002000       1.0000    1.0022    0.9978
 -136.62   85.34   87.80     0.002000       0.9996    1.0011    0.9993
 -136.91   94.43  100.20     0.002000       1.0000    1.0021    0.9979
   56.22   80.34   97.42     0.002000       1.0001    1.0008    0.9991
   59.19   86.60   99.00     0.002000       0.9999    1.0007    0.9994
 -136.01   82.56   78.72     0.002000       1.0000    1.0021    0.9979
   47.18   92.82   95.92     0.002000       1.0003    1.0008    0.9989
   57.45   69.83   66.76     0.002000       1.0002    1.0006    0.9991
   52.14   66.58   67.72     0.002000       1.0000    1.0016    0.9984
   46.82   54.86   88.92     0.002000       0.9996    1.0014    0.9991
 -135.80  127.06   88.14     0.002000       1.0000    1.0015    0.9986
 -141.08  110.44   84.95     0.002000       0.9996    1.0012    0.9992
 -136.78   88.63   86.61     0.002000       0.9999    1.0012    0.9989
   60.70   67.73   99.54     0.002000       1.0000    1.0004    0.9996
   45.10   99.92   72.60     0.002000       1.0000    1.0019    0.9981
   48.03   94.92   95.47     0.002000       0.9999    1.0011    0.9991
 -138.03  110.17   88.45     0.002000       1.0000    1.0020    0.9980
   46.82   94.23   77.90     0.002000       1.0000    1.0021    0.9979
 -133.87  105.28  119.76     0.002000       1.0000    1.0015    0.9984
   49.99   74.23   55.23     0.002000       1.0001    1.0013    0.9986
   47.65   92.52   66.73     0.002000       1.0003    1.0008    0.9989
 -131.98  115.53  112.62     0.002000       1.0000    1.0015    0.9985
   57.65   63.45   42.10     0.002000       1.0001    1.0006    0.9993
   45.88  109.01   82.68     0.002000       1.0000    1.0020    0.9980
 -136.90   84.16  117.53     0.002000       1.0000    1.0017    0.9983
 -135.68   94.53  110.04     0.002000       1.0004    1.0008    0.9988
 -136.88   85.41   89.91     0.002000       1.0000    1.0022    0.9978
   49.24   82.89   99.42     0.002000       1.0003    1.0007    0.9990
   67.42   72.60   89.59     0.002000       1.0000    1.0003    0.9997
 -137.00   81.53   86.35     0.002000       0.9997    1.0011    0.9991
 -136.10  128.75  105.52     0.002000       0.9997    1.0010    0.9994
 -146.62   88.00   82.61     0.002000       0.9999    1.0008    0.9993
 -133.50  106.72  115.36     0.002000       1.0000    1.0017    0.9983
 -140.41   77.62  114.72     0.002000       1.0000    1.0018    0.9982
 -150.65   66.81   81.92     0.002000       1.0000    1.0004    0.9996
 -133.57  124.87   93.68     0.002000       0.9997    1.0014    0.9989
   48.31   85.95   80.31     0.002000       1.0002    1.0009    0.9989
 -132.51   63.80   71.72     0.002000       1.0000    1.0016    0.9984
 -142.16  101.12   50.35     0.002000       1.0000    1.0013    0.9986
   58.79   83.22   74.64     0.002000       1.0001    1.0005    0.9994
 -146.33  118.80   68.00     0.002000       1.0002    1.0004    0.9994
 -155.18   83.65   90.99     0.002000       1.0001    1.0002    0.9998
   54.05   81.40   75.27     0.002000       0.9999    1.0010    0.9992
   53.97   77.36   86.43     0.002000       1.0000    1.0001    0.9999
   45.83   90.46   57.05     0.002000       1.0003    1.0009    0.9988
   51.89  101.87  129.18     0.002000       1.0000    1.0013    0.9986
   50.40   90.89   92.18     0.002000       0.9997    1.0011    0.9992
   46.43   87.30   84.03     0.002000       1.0002    1.0009    0.9989
   46.43  115.03   86.86     0.002000       1.0000    1.0019    0.9981
   48.70   92.22  130.62     0.002000       1.0002    1.0011    0.9987
 -120.04  126.61  127.19     0.002000       0.9999    1.0007    0.9994
   53.30   95.22   88.55     0.002000       1.0000    1.0008    0.9992
   53.27  110.61  118.12     0.002000       1.0000    1.0016    0.9984
   48.01   78.51   98.76     0.002000       0.9997    1.0012    0.9991
 -146.72   68.40  109.58     0.002000       1.0003    1.0005    0.9992
   45.91   62.28   90.52     0.002000       0.9997    1.0011    0.9992
 -136.75   97.18   99.38     0.002000       1.0003    1.0008    0.9989
 -136.05   90.51   50.25     0.002000       1.0002    1.0010    0.9987
   57.35   89.93   73.28     0.002000       0.9998    1.0008    0.9994
 -138.08  101.14   53.79     0.002000       1.0001    1.0014    0.9985
 -136.87   66.68   87.37     0.002000       0.9996    1.0012    0.9992
   46.83   53.84   87.59     0.002000       0.9999    1.0015    0.9987
   46.37  108.86   93.94     0.002000       1.0000    1.0019    0.9981
 -150.53   89.79   93.90     0.002000       1.0000    1.0007    0.9993
   47.43  127.60   81.25     0.002000       0.9997    1.0013    0.9990
   36.01   60.50  125.71     0.002000       0.9998    1.0009    0.9993
 -132.07   64.82   74.95     0.002000       1.0000    1.0017    0.9983
   41.52   53.31  109.48     0.002000       1.0000    1.0014    0.9987
   64.90   87.90   94.58     0.002000       1.0000    1.0001    0.9999
 -126.88   57.02   59.83     0.002000       0.9999    1.0013    0.9988
 -126.01  125.28  111.48     0.002000       0.9997    1.0011    0.9992
   46.63   82.29   69.13     0.002000       1.0000    1.0018    0.9982
 -152.96  102.84   59.28     0.002000       1.0000    1.0004    0.9997
 -136.93   80.29   84.01     0.002000       0.9998    1.0011    0.9991
   45.59   80.84   93.84     0.002000       0.9996    1.0011    0.9993
 -145.33  109.33   49.82     0.002000       1.0001    1.0011    0.9988
 -125.52   54.01   67.83     0.002000       0.9997    1.0013    0.9990
 -151.41   53.01  134.06     0.002000       1.0001    1.0004    0.9995
 -147.29  119.35   54.91     0.002000       1.0002    1.0006    0.9992
   55.67   84.49   92.15     0.002000       1.0000    1.0009    0.9991
 -151.15   85.32   87.26     0.002000       1.0000    1.0007    0.9994
   46.15   56.73   88.99     0.002000       0.9996    1.0014    0.9991
   43.19   97.67   59.98     0.002000       1.0000    1.0017    0.9983
 -138.04   99.21   53.94     0.002000       1.0002    1.0012    0.9986
 -126.65  122.03  130.39     0.002000       0.9999    1.0005    0.9996
 -138.10   65.29  101.79     0.002000       1.0000    1.0017    0.9983
 -137.23   96.87   78.31     0.002000       0.9997    1.0011    0.9991
 -136.64   91.06   83.10     0.002000       1.0004    1.0008    0.9989
 -135.08   89.63  111.88     0.002000       1.0004    1.0009    0.9987
 -156.72   67.98   92.03     0.002000       1.0000    1.0002    0.9998
   45.25   90.92   90.41     0.002000       0.9999    1.0012    0.9989
   45.16  119.08   77.26     0.002000       1.0000    1.0002    0.9998
 -128.27   47.82   68.35     0.002000       0.9998    1.0011    0.9991
 -136.02   94.43  112.06     0.002000       1.0004    1.0008    0.9989
   50.26   80.76   83.74     0.002000       0.9997    1.0010    0.9993
   47.61   80.72   90.35     0.002000       0.9997    1.0012    0.9991
   62.73   93.60  119.36     0.002000       1.0000    1.0004    0.9996
 -137.97   91.04   57.65     0.002000       1.0000    1.0017    0.9983
   40.76  129.06   76.84     0.002000       0.9999    1.0013    0.9988
   50.04   63.24   79.04     0.002000       1.0000    1.0018    0.9982
   52.55   84.65   95.63     0.002000       1.0000    1.0010    0.9990
   65.77   93.75   91.29     0.002000       1.0000    1.0004    0.9996
 -133.51  125.46   98.10     0.002000       0.9996    1.0012    0.9992
   44.31   95.10   57.85     0.002000       1.0003    1.0011    0.9986
 -135.42   96.36   95.13     0.002000       0.9998    1.0012    0.9991
 -133.48   49.83   86.19     0.002000       0.9997    1.0014    0.9988
   60.88   76.61   63.26     0.002000       0.9999    1.0005    0.9996
   48.15   60.43   87.27     0.002000       0.9997    1.0012    0.9992
   47.46   95.65  120.57     0.002000       1.0000    1.0017    0.9983
   46.58   98.73   79.51     0.002000       1.0000    1.0021    0.9979
 -148.90   77.73   87.76     0.002000       0.9999    1.0006    0.9995
 -135.76   81.37   92.23     0.002000       1.0004    1.0008    0.9987
   46.18   91.79   80.56     0.002000       1.0002    1.0009    0.9988
   46.80   90.53   66.79     0.002000       1.0000    1.0018    0.9982
   49.84   71.18   73.01     0.002000       1.0000    1.0018    0.9982
   59.65   89.20   89.30     0.002000       1.0000    1.0007    0.9993
   40.11  127.46   62.26     0.002000       1.0000    1.0012    0.9989
 -141.20   88.32   81.77     0.002000       1.0003    1.0009    0.9989
   58.90  101.49  101.82     0.002000       1.0002    1.0006    0.9991
 -125.91   52.70   69.74     0.002000       0.9996    1.0011    0.9992
   50.53   93.97   90.23     0.002000       0.9998    1.0011    0.9991
 -139.99   79.95   84.08     0.002000       1.0003    1.0009    0.9989
 -132.58   75.75   51.20     0.002000       1.0002    1.0013    0.9986
 -141.44   97.70   94.59     0.002000       1.0000    1.0010    0.9990
   46.85  120.11   92.64     0.002000       0.9996    1.0013    0.9991
   43.30   49.87  112.06     0.002000       0.9997    1.0009    0.9994
 -138.41   91.23   67.66     0.002000       1.0004    1.0009    0.9987
 -137.35   90.23  126.89     0.002000       1.0003    1.0011    0.9986
   58.16   74.64   95.29     0.002000       1.0002    1.0006    0.9992
   44.14   72.28   94.32     0.002000       0.9997    1.0012    0.9991
 -145.62   91.07   85.35     0.002000       1.0000    1.0009    0.9991
 -137.23   85.51   97.81     0.002000       1.0002    1.0009    0.9989
 -139.09  119.63   88.92     0.002000       0.9996    1.0012    0.9992
   50.32   87.24   52.39     0.002000       1.0003    1.0010    0.9987
 -139.94   83.51  127.00     0.002000       1.0003    1.0011    0.9986
 -151.56   83.96   87.06     0.002000       1.0000    1.0006    0.9994
   47.88   87.80   91.81     0.002000       1.0001    1.0010    0.9988
   55.84   98.87  104.61     0.002000       0.9998    1.0008    0.9994
 -135.43   84.15   68.29     0.002000       1.0000    1.0019    0.9981
 -135.80  102.97   92.30     0.002000       1.0000    1.0020    0.9980
   45.02   57.26   97.95     0.002000       1.0000    1.0016    0.9984
 -146.66  125.67   65.67     0.002000       0.9998    1.0013    0.9990
   40.86   71.48  116.49     0.002000       1.0000    1.0016    0.9984
 -136.44  114.10  102.39     0.002000       0.9996    1.0012    0.9992
 -142.17   95.57   89.85     0.002000       0.9999    1.0011    0.9991
 -155.33   89.56   88.37     0.002000       1.0000    1.0004    0.9996
   46.26   89.42   91.68     0.002000       1.0003    1.0008    0.9989
 -134.64   72.44   87.65     0.002000       0.9998    1.0011    0.9992
 -136.51   88.09   55.67     0.002000       1.0000    1.0016    0.9984
   54.03   90.53   68.98     0.002000       0.9997    1.0007    0.9996
 -139.90   68.09  102.71     0.002000       1.0000    1.0018    0.9982
 -141.31   74.32  132.04     0.002000       1.0002    1.0009    0.9989
 -150.52  114.17   43.34     0.002000       1.0000    1.0010    0.9990
   48.96   58.52   77.87     0.002000       1.0000    1.0016    0.9984
 -137.42   87.63  118.28     0.002000       1.0000    1.0017    0.9983
 -140.35   94.57   83.28     0.002000       0.9999    1.0010    0.9991
 -137.28   96.36   94.83     0.002000       1.0000    1.0022    0.9978
 -149.34  104.93   90.26     0.002000       0.9999    1.0006    0.9995
 -143.27   90.95   94.08     0.002000       0.9999    1.0010    0.9991
   49.93  110.62  106.62     0.002000       1.0000    1.0018    0.9982
 -146.69   88.38   83.80     0.002000       0.9999    1.0009    0.9992
 -140.94   86.27   96.49     0.002000       0.9996    1.0010    0.9993
 -142.15  114.26   69.67     0.002000       1.0000    1.0017    0.9983
 -145.34   93.80   83.42     0.002000       1.0000    1.0009    0.9991
 -144.69   81.40  105.69     0.002000       0.9999    1.0009    0.9992
   45.54   89.87   53.33     0.002000       1.0002    1.0012    0.9986
 -136.09   92.59   71.81     0.002000       1.0002    1.0008    0.9990
   46.64   91.07   83.50     0.002000       1.0003    1.0007    0.9990
   48.87   87.69   72.07     0.002000       1.0003    1.0009    0.9987
   50.66  104.82   81.88     0.002000       1.0001    1.0009    0.9991
 -141.25  125.49   80.82     0.002000       1.0000    1.0015    0.9985
   47.51   89.89   90.48     0.002000       0.9999    1.0012    0.9990
 -145.02   90.19   89.96     0.002000       1.0000    1.0009    0.9990
   57.19  107.78   85.54     0.002000       1.0000    1.0007    0.9993
 -135.46   84.34   77.33     0.002000       1.0000    1.0020    0.9980
 -135.48   90.94  109.00     0.002000       1.0004    1.0009    0.9987
   51.68  109.89  115.84     0.002000       1.0000    1.0017    0.9983
 -140.01   83.59   94.52     0.002000       0.9999    1.0011    0.9990
   59.44   90.07   92.50     0.002000       1.0000    1.0007    0.9993
   49.85   83.81   82.49     0.002000       0.9999    1.0011    0.9990
   48.27   84.87   86.93     0.002000       0.9998    1.0011    0.9991
 -136.17   91.83   87.55     0.002000       0.9996    1.0011    0.9993
 -143.18   94.62   80.92     0.002000       0.9999    1.0009    0.9992
   44.64  129.72   88.04     0.002000       0.9998    1.0013    0.9989
   53.43   66.43   62.29     0.002000       1.0000    1.0015    0.9985
 -138.95   83.99  112.14     0.002000       1.0000    1.0019    0.9981
 -139.54   87.82   91.23     0.002000       1.0002    1.0009    0.9989
 -140.37   86.62   98.51     0.002000       1.0004    1.0007    0.9989
 -139.06   90.06   92.83     0.002000       0.9997    1.0012    0.9991
   39.82   68.46  124.74     0.002000       1.0001    1.0012    0.9987
   48.91   98.59   78.48     0.002000       0.9996    1.0010    0.9994
 -144.89   71.64   77.03     0.002000       1.0001    1.0005    0.9994
   65.25   86.05   78.38     0.002000       1.0000    1.0004    0.9996
   46.28   96.29   93.81     0.002000       1.0002    1.0010    0.9988
   33.60   54.29  129.19     0.002000       0.9999    1.0007    0.9994
 -136.77   89.22   70.85     0.002000       1.0004    1.0009    0.9987
   59.27  122.82  124.92     0.002000       0.9999    1.0011    0.9989
   49.62   84.34   55.45     0.002000       1.0001    1.0015    0.9984
 -144.72   62.36  122.54     0.002000       1.0000    1.0013    0.9987
 -138.11   89.32   90.95     0.002000       0.9998    1.0012    0.9990
   55.58   55.48   65.28     0.002000       0.9999    1.0013    0.9988
 -136.54   87.30   85.31     0.002000       1.0002    1.0010    0.9988
   47.72   78.05   90.82     0.002000       0.9996    1.0012    0.9992
 -158.28  112.82   87.41     0.002000       1.0000    1.0002    0.9998
 -135.83   97.29  122.84     0.002000       1.0001    1.0015    0.9984
   46.60   84.69   54.95     0.002000       1.0002    1.0013    0.9985
   42.14  121.04   77.42     0.002000       1.0000    1.0016    0.9984
 -131.34   71.25   51.22     0.002000       1.0001    1.0012    0.9987
 -135.34  100.79  116.92     0.002000       1.0000    1.0017    0.9983
 -138.09   71.81  104.68     0.002000       1.0000    1.0018    0.9982
 -138.07   93.01   85.42     0.002000       0.9999    1.0010    0.9991
 -136.21   92.28   98.98     0.002000       1.0003    1.0008    0.9988
 -136.65   92.14  110.42     0.002000       1.0003    1.0009    0.9988
 -131.81   55.94   74.20     0.002000       1.0000    1.0015    0.9985
   51.35  103.99   88.00     0.002000       0.9997    1.0012    0.9992
 -150.27   64.62   80.74     0.002000       1.0000    1.0004    0.9996
   31.62  126.99   49.49     0.002000       1.0000    1.0006    0.9993
   56.72   64.07   50.93     0.002000       1.0001    1.0010    0.9989
   39.80  130.89   75.80     0.002000       0.9997    1.0012    0.9991
 -139.56   68.70   65.19     0.002000       0.9997    1.0008    0.9995
 -137.71   89.54   58.24     0.002000       1.0000    1.0017    0.9983
   48.65   56.32   87.71     0.002000       0.9997    1.0012    0.9991
   45.26  121.03   79.11     0.002000       0.9997    1.0013    0.9990
   45.40   84.28   98.11     0.002000       1.0003    1.0008    0.9989
   43.58  126.10   75.66     0.002000       0.9999    1.0014    0.9987
   57.65   85.97   80.32     0.002000       0.9999    1.0009    0.9993
   46.94  111.16   88.02     0.002000       1.0000    1.0019    0.9981
   54.08  115.31   69.25     0.002000       0.9998    1.0006    0.9996
 -138.57  120.59   84.21     0.002000       0.9996    1.0012    0.9992
 -136.60   87.71   98.69     0.002000       1.0002    1.0009    0.9989
 -139.24   94.63   89.38     0.002000       1.0003    1.0009    0.9988
 -134.35   79.28   72.63     0.002000       1.0000    1.0020    0.9980
 -141.11   75.50  131.19     0.002000       1.0002    1.0010    0.9988
   55.12  120.76  119.85     0.002000       1.0000    1.0014    0.9987
   47.78   82.53   80.49     0.002000       0.9998    1.0011    0.9991
 -144.13  102.09   49.81     0.002000       1.0002    1.0010    0.9988
 -135.80   81.71   73.95     0.002000       1.0000    1.0020    0.9980
   49.09   97.45  114.42     0.002000       1.0005    1.0008    0.9987
 -136.93   90.05   75.53     0.002000       1.0003    1.0007    0.9989
   57.29   81.11  114.37     0.002000       0.9999    1.0006    0.9995
 -135.32   62.53   83.59     0.002000       1.0000    1.0018    0.9982
 -135.52   52.62   88.59     0.002000       0.9997    1.0014    0.9989
 -138.81   70.83   84.36     0.002000       0.9996    1.0011    0.9993
   50.76  124.75   97.21     0.002000       0.9999    1.0016    0.9986
 -133.03   78.86   64.77     0.002000       1.0000    1.0018    0.9982
 -140.99   78.06   83.31     0.002000       0.9996    1.0011    0.9993
   47.34   91.00   82.95     0.002000       1.0000    1.0022    0.9978
 -139.01   88.46   90.10     0.002000       1.0003    1.0008    0.9990
   48.18   90.95  103.83     0.002000       1.0002    1.0008    0.9989
   47.57   84.04   88.55     0.002000       0.9999    1.0012    0.9990
   61.18   94.17   91.63     0.002000       1.0000    1.0006    0.9993
   66.32   90.27   89.76     0.002000       1.0000    1.0004    0.9996
 -134.97  106.27   91.54     0.002000       0.9996    1.0013    0.9991
   45.10   86.90   82.83     0.002000       1.0004    1.0008    0.9989
   56.98   54.59   62.65     0.002000       0.9998    1.0012    0.9990
 -130.65   58.39   75.01     0.002000       0.9997    1.0014    0.9989
   42.96   51.30  101.36     0.002000       0.9999    1.0014    0.9987
   48.70   84.83   87.33     0.002000       0.9999    1.0011    0.9990
   55.78  112.81   84.46     0.002000       1.0000    1.0007    0.9994
   49.19   92.68   99.04     0.002000       0.9996    1.0011    0.9993
   51.24   87.84   95.40     0.002000       1.0003    1.0008    0.9989
 -153.51   90.37   76.05     0.002000       1.0000    1.0005    0.9995
 -131.82  114.79  107.53     0.002000       1.0000    1.0016    0.9984
 -145.95   96.47   92.81     0.002000       1.0000    1.0009    0.9991
 -141.11   88.97   80.05     0.002000       1.0003    1.0009    0.9989
 -140.98  111.69   54.20     0.002000       1.0002    1.0011    0.9988
 -133.99   77.78   70.93     0.002000       1.0000    1.0019    0.9981
 -139.74   89.57   96.85     0.002000       1.0003    1.0009    0.9989
 -132.11  110.23  126.21     0.002000       1.0001    1.0012    0.9987
 -145.97   84.39   96.77     0.002000       0.9999    1.0010    0.9992
 -143.49   73.97   82.01     0.002000       1.0000    1.0008    0.9993
   67.57   82.14   90.27     0.002000       1.0000    1.0003    0.9997
   45.75   88.47   84.32     0.002000       1.0002    1.0009    0.9989
   47.19   86.16   89.73     0.002000       0.9997    1.0010    0.9993
   44.17   82.83  108.45     0.002000       1.0000    1.0019    0.9981
   43.55   52.54  103.22     0.002000       0.9999    1.0015    0.9986
 -134.41   94.59  100.12     0.002000       0.9996    1.0012    0.9992
   52.93   92.81   93.69     0.002000       0.9998    1.0011    0.9991
 -133.29  112.54  114.33     0.002000       1.0000    1.0016    0.9984
   62.13   88.00   96.08     0.002000       1.0000    1.0006    0.9994
   53.02   85.35   92.60     0.002000       1.0001    1.0008    0.9991
   65.10  114.95  120.30     0.002000       1.0001    1.0004    0.9995
   44.58   97.17   61.23     0.002000       1.0000    1.0016    0.9983
   54.30   92.95   98.47     0.002000       0.9997    1.0011    0.9992
 -145.81   59.64  126.67     0.002000       1.0000    1.0011    0.9989
 -133.82  110.47  107.61     0.002000       1.0000    1.0018    0.9982
 -150.65   94.56   88.75     0.002000       1.0000    1.0007    0.9993
   53.40  113.46  127.67     0.002000       1.0000    1.0013    0.9987
   56.50   81.70   73.43     0.002000       1.0000    1.0007    0.9993
 -133.85   65.45   74.81     0.002000       1.0000    1.0018    0.9982
 -139.38   59.38   95.01     0.002000       0.9996    1.0013    0.9992
   45.94  110.31   91.21     0.002000       0.9995    1.0013    0.9991
   47.01   89.52  129.54     0.002000       1.0002    1.0013    0.9985
   53.31   82.75   79.88     0.002000       1.0000    1.0009    0.9991
 -134.81   92.89  112.53     0.002000       1.0004    1.0009    0.9987
 -157.45  105.49   91.26     0.002000       1.0000    1.0003    0.9997
 -137.65   88.24  112.84     0.002000       1.0000    1.0019    0.9981
   58.68   87.75   80.35     0.002000       1.0001    1.0005    0.9994
 -155.20   90.00   88.57     0.002000       1.0000    1.0004    0.9996
 -149.22  125.15   58.02     0.002000       0.9998    1.0011    0.9992
   50.68   97.91   92.37     0.002000       0.9997    1.0012    0.9991
   43.40   62.30  104.47     0.002000       1.0000    1.0017    0.9983
   47.35   93.11   86.13     0.002000       1.0001    1.0011    0.9989
   47.97   90.55   97.14     0.002000       1.0003    1.0009    0.9989
   53.33  101.74  127.56     0.002000       1.0004    1.0006    0.9990
 -140.94   71.53   78.14     0.002000       0.9996    1.0010    0.9994
   48.07   93.34   61.91     0.002000       1.0003    1.0009    0.9988
 -132.76   72.31   64.76     0.002000       1.0000    1.0017    0.9983
 -143.72   88.69   91.45     0.002000       1.0001    1.0008    0.9991
 -138.12   95.66   95.48     0.002000       1.0001    1.0010    0.9989
   47.07   87.68   73.24     0.002000       1.0000    1.0020    0.9980
   46.11   87.47   75.68     0.002000       1.0003    1.0008    0.9989
   47.73   89.99  124.00     0.002000       1.0000    1.0016    0.9984
   43.63   99.23   51.21     0.002000       1.0003    1.0010    0.9987
   48.38   56.21   95.41     0.002000       0.9997    1.0013    0.9991
 -137.82  100.50   67.86     0.002000       1.0000    1.0019    0.9981
   57.95   57.60   53.47     0.002000       0.9999    1.0010    0.9990
   51.12   88.32   88.06     0.002000       0.9999    1.0011    0.9990
 -138.76   69.08  104.90     0.002000       1.0000    1.0018    0.9982
   59.26  112.51  -40.36     0.002000       1.0001    1.0007    0.9991
   44.56  120.07   75.12     0.002000       1.0000    1.0016    0.9984
   47.17   86.67  123.36     0.002000       1.0003    1.0009    0.9988
   33.71   51.98  127.59     0.002000       0.9999    1.0009    0.9992
 -125.20  126.81  117.13     0.002000       0.9999    1.0011    0.9989
 -131.16   59.41   75.46     0.002000       1.0000    1.0016    0.9985
 -132.15  115.76  114.39     0.002000       1.0000    1.0015    0.9985
 -150.13   58.65  133.03     0.002000       1.0000    1.0008    0.9992
   47.05   85.90   94.07     0.002000       0.9998    1.0011    0.9991
 -152.28   85.09  109.86     0.002000       1.0000    1.0005    0.9995
   35.17  122.77   52.56     0.002000       1.0001    1.0009    0.9991
   52.72  103.77  126.91     0.002000       1.0000    1.0014    0.9986
 -139.30   89.48   86.30     0.002000       1.0001    1.0009    0.9990
 -135.59   84.29   68.46     0.002000       1.0000    1.0020    0.9980
   48.53   92.16   98.76     0.002000       1.0003    1.0008    0.9990
   45.81   84.10   88.33     0.002000       0.9998    1.0011    0.9991
 -135.19   89.88  128.10     0.002000       1.0002    1.0011    0.9987
   49.08  104.75   88.14     0.002000       0.9997    1.0012    0.9991
 -132.22   54.15   71.76     0.002000       1.0000    1.0014    0.9986
   39.38  120.03   60.58     0.002000       1.0000    1.0013    0.9988
   59.92   59.77   49.54     0.002000       1.0000    1.0009    0.9991
 -147.83   59.93  127.77     0.002000       1.0000    1.0011    0.9989
   48.93  120.83   74.88     0.002000       0.9997    1.0009    0.9995
 -140.49   67.48  104.89     0.002000       1.0000    1.0018    0.9982
 -139.64  126.84   80.93     0.002000       0.9999    1.0015    0.9985
 -146.14   93.15   78.29     0.002000       1.0000    1.0009    0.9991
   48.22   56.84   86.92     0.002000       1.0000    1.0016    0.9984
   46.83  108.77   86.19     0.002000       0.9996    1.0011    0.9993
   45.46   85.64   92.47     0.002000       0.9997    1.0011    0.9991
 -129.33   61.89   61.49     0.002000       0.9998    1.0010    0.9992
   46.34  114.30   91.00     0.002000       0.9996    1.0013    0.9991
   47.10   82.56   92.44     0.002000       0.9996    1.0013    0.9991
 -147.51  105.96   66.46     0.002000       1.0000    1.0001    0.9999
 -144.51   87.74   87.20     0.002000       0.9999    1.0009    0.9992
 -136.22   90.26   60.65     0.002000       1.0000    1.0017    0.9983
   45.22   90.73  108.64     0.002000       1.0003    1.0009    0.9988
 -156.84   89.98   99.45     0.002000       1.0000    1.0003    0.9997
   45.60   86.34  121.61     0.002000       1.0000    1.0017    0.9983
   56.42  110.46  126.60     0.002000       1.0003    1.0007    0.9990
 -142.49   81.95   85.27     0.002000       1.0000    1.0010    0.9990
   51.39   88.12   93.40     0.002000       1.0003    1.0008    0.9989
   50.58   69.88   56.73     0.002000       1.0001    1.0011    0.9987
   47.59   85.04   87.70     0.002000       1.0000    1.0022    0.9978
   38.43   57.31  112.10     0.002000       0.9998    1.0013    0.9989
 -144.45  101.89   94.14     0.002000       1.0000    1.0008    0.9992
   60.45   58.22   47.74     0.002000       1.0000    1.0009    0.9991
   48.09   89.42  128.15     0.002000       1.0001    1.0014    0.9985
   54.43  111.11  123.11     0.002000       1.0003    1.0005    0.9992
   54.92   79.38   70.46     0.002000       0.9998    1.0008    0.9993
 -134.05   54.39   81.43     0.002000       0.9997    1.0014    0.9989
 -140.20   63.11   73.97     0.002000       0.9997    1.0009    0.9994
 -139.77   77.18  112.94     0.002000       1.0000    1.0018    0.9982
 -141.30   66.29   67.20     0.002000       0.9998    1.0007    0.9995
   55.99  111.13  120.53     0.002000       1.0003    1.0007    0.9991
   49.62   90.97   83.43     0.002000       0.9996    1.0012    0.9992
 -132.86   75.04   56.60     0.002000       1.0001    1.0014    0.9985
 -144.38  116.10   57.26     0.002000       1.0000    1.0014    0.9986
   50.60   98.61   86.08     0.002000       1.0001    1.0010    0.9989
   45.67  101.02   92.22     0.002000       1.0000    1.0021    0.9979
   45.76  127.77   81.84     0.002000       0.9996    1.0011    0.9992
 -133.04  126.41   95.61     0.002000       0.9998    1.0015    0.9987
 -147.13  112.61   50.57     0.002000       1.0002    1.0008    0.9990
   45.64   80.72   94.81     0.002000       0.9998    1.0012    0.9990
 -157.24  116.29   42.87     0.002000       1.0001    1.0003    0.9996
 -138.57   86.87   88.73     0.002000       0.9997    1.0011    0.9992
   65.90   91.83   92.85     0.002000       1.0000    1.0001    0.9999
   56.60   59.45   61.41     0.002000       1.0001    1.0004    0.9995
   45.39   79.55   91.84     0.002000       1.0000    1.0021    0.9979
   40.23  115.83   58.92     0.002000       1.0000    1.0013    0.9987
 -135.44  108.82  101.29     0.002000       1.0000    1.0019    0.9981
   63.51   97.80  116.12     0.002000       1.0000    1.0004    0.9996
 -145.88   87.80   91.87     0.002000       1.0001    1.0008    0.9991
 -136.36   91.53  128.16     0.002000       1.0001    1.0013    0.9986
 -133.33  104.08  104.40     0.002000       1.0000    1.0020    0.9980
   52.80  100.62  107.56     0.002000       0.9998    1.0010    0.9993
   47.46   89.49   53.81     0.002000       1.0000    1.0015    0.9985
   60.41   94.02   89.46     0.002000       1.0000    1.0007    0.9993
 -131.13  111.72  109.76     0.002000       1.0000    1.0017    0.9983
 -135.52   91.08   65.79     0.002000       1.0004    1.0009    0.9987
   36.02   53.73  127.27     0.002000       0.9999    1.0009    0.9991
   49.48   60.45  110.34     0.002000       0.9997    1.0008    0.9995
   48.93   78.94   99.58     0.002000       1.0001    1.0009    0.9990
 -141.89   94.70   91.48     0.002000       1.0003    1.0009    0.9988
 -136.18   92.29   88.98     0.002000       0.9998    1.0011    0.9991
 -150.89   78.88  114.45     0.002000       1.0000    1.0004    0.9996
   68.10   76.55   91.53     0.002000       1.0000    1.0002    0.9998
   51.89   76.45   54.11     0.002000       1.0001    1.0013    0.9986
   45.99  122.95   90.58     0.002000       0.9996    1.0014    0.9990
 -144.12   98.29  112.89     0.002000       0.9998    1.0007    0.9995
   46.64   77.82   85.95     0.002000       1.0000    1.0021    0.9980
   49.58   87.73  101.51     0.002000       1.0003    1.0008    0.9989
   52.35  100.66  132.89     0.002000       1.0002    1.0011    0.9988
 -133.89  124.39   98.69     0.002000       0.9999    1.0015    0.9986
   46.09  128.00   83.60     0.002000       0.9998    1.0014    0.9988
 -133.75   99.86  107.10     0.002000       1.0000    1.0019    0.9981
   46.77   89.23   80.96     0.002000       1.0004    1.0009    0.9987
   45.66   79.52   88.91     0.002000       0.9997    1.0012    0.9992
 -134.46   69.98   87.66     0.002000       0.9997    1.0012    0.9991
 -133.58  107.10  105.68     0.002000       1.0000    1.0018    0.9982
 -143.32   64.86  123.42     0.002000       1.0000    1.0012    0.9988
 -145.11   98.91   92.08     0.002000       1.0002    1.0008    0.9990
   44.64  121.11   78.78     0.002000       1.0000    1.0016    0.9984
   53.50   57.59   65.75     0.002000       0.9999    1.0014    0.9987
 -119.40   47.08 -136.19     0.002000       1.0000    1.0005    0.9995
   47.40  100.79   89.04     0.002000       0.9998    1.0011    0.9991
 -143.70   91.49   82.31     0.002000       0.9998    1.0009    0.9992
 -135.53   51.31   82.53     0.002000       0.9999    1.0015    0.9986
 -136.74   94.49  108.34     0.002000       1.0000    1.0020    0.9980
 -143.86   95.95   92.34     0.002000       1.0000    1.0009    0.9991
   37.60   58.41  118.51     0.002000       1.0000    1.0014    0.9987
   64.07   93.89   89.51     0.002000       1.0001    1.0003    0.9996
 -143.86   99.58   94.53     0.002000       1.0002    1.0007    0.9991
   47.71   99.32  108.83     0.002000       1.0000    1.0019    0.9981
 -135.81   81.13   85.91     0.002000       0.9998    1.0012    0.9990
   48.40   71.01   87.93     0.002000       0.9997    1.0011    0.9992
   48.98  126.82   93.26     0.002000       0.9997    1.0012    0.9990
 -134.35   82.51   74.84     0.002000       1.0000    1.0020    0.9980
 -149.14   93.40   74.99     0.002000       1.0000    1.0007    0.9993
 -137.78   88.09  113.92     0.002000       1.0004    1.0009    0.9987
 -142.99   70.29   80.84     0.002000       1.0000    1.0008    0.9993
 -136.40   96.37   90.47     0.002000       0.9997    1.0012    0.9990
   58.61   66.85   62.86     0.002000       1.0003    1.0005    0.9992
   45.27   87.71   89.42     0.002000       0.9998    1.0011    0.9991
